nk
SglSil  1400. 3.6  0.588 20.077
    4.00000E-01    1.68000E+00    3.50000E-03
    4.50000E-01    1.67000E+00    2.90000E-03
    5.00000E-01    1.66000E+00    2.80000E-03
    6.00000E-01    1.64000E+00    2.80000E-03
    7.00000E-01    1.64000E+00    3.10000E-03
    8.00000E-01    1.63000E+00    3.60000E-03
    1.00000E+00    1.62000E+00    5.00000E-03
    1.10000E+00    1.62000E+00    5.30000E-03
    1.20000E+00    1.62000E+00    5.40000E-03
    1.30000E+00    1.62000E+00    5.20000E-03
    1.40000E+00    1.62000E+00    5.00000E-03
    1.50000E+00    1.62000E+00    4.90000E-03
    1.60000E+00    1.62000E+00    5.00000E-03
    1.70000E+00    1.62000E+00    5.30000E-03
    1.80000E+00    1.62000E+00    5.50000E-03
    1.90000E+00    1.62000E+00    5.80000E-03
    2.00000E+00    1.62000E+00    5.80000E-03
    2.10000E+00    1.62000E+00    5.80000E-03
    2.20000E+00    1.62000E+00    5.70000E-03
    2.30000E+00    1.62000E+00    5.80000E-03
    2.40000E+00    1.62000E+00    5.70000E-03
    2.60000E+00    1.62000E+00    5.50000E-03
    2.80000E+00    1.61000E+00    5.50000E-03
    3.00000E+00    1.61000E+00    5.50000E-03
    3.50000E+00    1.60000E+00    5.70000E-03
    4.00000E+00    1.59000E+00    5.60000E-03
    4.50000E+00    1.56000E+00    5.80000E-03
    5.00000E+00    1.54000E+00    7.30000E-03
    5.50000E+00    1.51000E+00    8.90000E-03
    6.00000E+00    1.47000E+00    8.60000E-03
    6.50000E+00    1.42000E+00    8.50000E-03
    7.00000E+00    1.37000E+00    9.10000E-03
    7.20000E+00    1.34000E+00    1.00000E-02
    7.40000E+00    1.30000E+00    1.10000E-02
    7.60000E+00    1.26000E+00    1.30000E-02
    7.80000E+00    1.20000E+00    2.00000E-02
    8.00000E+00    1.10000E+00    6.00000E-02
    8.20000E+00    1.02000E+00    1.50000E-01
    8.40000E+00    9.80000E-01    2.60000E-01
    8.60000E+00    9.50000E-01    4.00000E-01
    8.80000E+00    9.50000E-01    5.40000E-01
    9.00000E+00    1.03000E+00    6.70000E-01
    9.20000E+00    1.10000E+00    7.70000E-01
    9.40000E+00    1.18000E+00    8.70000E-01
    9.60000E+00    1.32000E+00    9.50000E-01
    9.80000E+00    1.46000E+00    9.80000E-01
    1.00000E+01    1.57000E+00    9.70000E-01
    1.02000E+01    1.68000E+00    9.70000E-01
    1.04000E+01    1.79000E+00    9.40000E-01
    1.06000E+01    1.89000E+00    9.10000E-01
    1.08000E+01    1.98000E+00    8.40000E-01
    1.10000E+01    2.07000E+00    7.60000E-01
    1.12000E+01    2.12000E+00    6.60000E-01
    1.14000E+01    2.15000E+00    5.70000E-01
    1.16000E+01    2.17000E+00    4.40000E-01
    1.18000E+01    2.14000E+00    3.40000E-01
    1.20000E+01    2.09000E+00    2.50000E-01
    1.22000E+01    2.01000E+00    2.00000E-01
    1.25000E+01    1.92000E+00    1.70000E-01
    1.30000E+01    1.83000E+00    1.60000E-01
    1.35000E+01    1.75000E+00    1.60000E-01
    1.40000E+01    1.68000E+00    1.60000E-01
    1.45000E+01    1.63000E+00    1.60000E-01
    1.50000E+01    1.56000E+00    1.90000E-01
    1.55000E+01    1.47000E+00    2.00000E-01
    1.60000E+01    1.38000E+00    2.90000E-01
    1.65000E+01    1.31000E+00    4.10000E-01
    1.70000E+01    1.31000E+00    5.50000E-01
    1.75000E+01    1.33000E+00    6.70000E-01
    1.80000E+01    1.40000E+00    7.80000E-01
    1.85000E+01    1.48000E+00    8.70000E-01
    1.90000E+01    1.57000E+00    9.20000E-01
    1.95000E+01    1.66000E+00    9.60000E-01
    2.00000E+01    1.73000E+00    9.90000E-01
    2.05000E+01    1.80000E+00    1.03000E+00
    2.10000E+01    1.92000E+00    1.07000E+00
    2.15000E+01    2.08000E+00    1.02000E+00
    2.20000E+01    2.16000E+00    9.30000E-01
    2.25000E+01    2.19000E+00    8.50000E-01
    2.30000E+01    2.20000E+00    7.80000E-01
    2.40000E+01    2.18000E+00    7.00000E-01
    2.50000E+01    2.16000E+00    6.70000E-01
    2.60000E+01    2.15000E+00    6.60000E-01
    2.70000E+01    2.16000E+00    6.60000E-01
    2.80000E+01    2.17000E+00    6.60000E-01
    2.90000E+01    2.19000E+00    6.70000E-01
    3.00000E+01    2.22000E+00    6.70000E-01
    3.20000E+01    2.28000E+00    6.50000E-01
    3.40000E+01    2.33000E+00    6.20000E-01
    3.60000E+01    2.37000E+00    5.90000E-01
    3.80000E+01    2.40000E+00    5.60000E-01
    4.00000E+01    2.42000E+00    5.30000E-01
    4.50000E+01    2.45000E+00    4.80000E-01
    5.00000E+01    2.48000E+00    4.40000E-01
    5.50000E+01    2.50000E+00    4.00000E-01
    6.00000E+01    2.52000E+00    3.60000E-01
    6.50000E+01    2.53000E+00    3.30000E-01
    7.00000E+01    2.55000E+00    2.90000E-01
    8.00000E+01    2.54000E+00    2.50000E-01
    9.00000E+01    2.54000E+00    2.30000E-01
    1.00000E+02    2.55000E+00    2.10000E-01
    1.20000E+02    2.56000E+00    1.80000E-01
    1.50000E+02    2.57000E+00    1.40000E-01
    2.00000E+02    2.58000E+00    1.10000E-01
    2.50000E+02    2.58000E+00    8.00000E-02
    3.00000E+02    2.58000E+00    7.00000E-02
    4.00000E+02    2.58000E+00    5.00000E-02
    5.00000E+02    2.58000E+00    4.00000E-02

 ===========================================================
  Optical constants for glassy silicate                        
  Data from Jaeger et al. (1994) Astron.Astrophys. 292, 641              
  Range 0.4 - 500 mic,  108 entries.           [MN; May'99]
 ===========================================================
     wavelength         n             k    
      (micron)         (-)           (-)  
